Thermometre :	CX_LS_X103358
Environment :	VA
Date :	02/11/2017
Function :	 logT = Sum ( Ai / logR^i )
Coefficients :	
A0=	-1.736179702285066E+3
A1=	45.572949513705760E+3
A2=	-511.976224671053880E+3
A3=	3.259702144704870E+6
A4=	-13.040408708340162E+6
A5=	34.139541381491341E+6
A6=	-58.670591629468352E+6
A7=	63.969052238620348E+6
A8=	-40.220738045755647E+6
A9=	11.125914341420555E+6
Rmes(Ohm)	Tmes(K)	Tfit(K)	dT(mK)	Courant(A)
8.206251E+1	308.9256	308.9848	-59.1737	1E-4
8.417211E+1	300.8166	300.7765	40.1251	1E-4
8.676500E+1	291.4211	291.3645	56.5990	1E-4
9.006486E+1	280.3073	280.2854	21.9051	1E-4
9.262080E+1	272.2943	272.2945	-0.2472	1E-4
9.583309E+1	262.8547	262.8877	-32.9811	1E-4
9.932897E+1	253.3266	253.3645	-37.9149	1E-4
1.037019E+2	242.3480	242.3764	-28.3531	1E-4
1.075710E+2	233.3966	233.4127	-16.0791	1E-4
1.119847E+2	223.9551	223.9559	-0.7738	1E-4
1.168999E+2	214.2894	214.2768	12.6355	1E-4
1.222523E+2	204.6579	204.6310	26.8573	1E-4
1.283632E+2	194.6363	194.6062	30.1206	1E-4
1.345865E+2	185.3545	185.3295	25.0432	1E-4
1.422832E+2	174.9809	174.9649	15.9751	1E-4
1.498750E+2	165.7653	165.7621	3.2392	1E-4
1.602682E+2	154.5187	154.5347	-15.9724	1E-4
1.697311E+2	145.4509	145.4647	-13.7801	1E-4
1.701168E+2	145.0928	145.1155	-22.7243	1E-4
1.808048E+2	135.9923	136.0084	-16.1483	1E-4
1.812599E+2	135.6313	135.6435	-12.2073	1E-4
1.934342E+2	126.4884	126.4930	-4.6488	1E-4
1.940676E+2	126.0324	126.0472	-14.7535	1E-4
2.099797E+2	115.6948	115.6975	-2.6645	1E-4
2.105457E+2	115.3560	115.3572	-1.1837	1E-4
2.243196E+2	107.5945	107.5911	3.3513	1E-4
2.249324E+2	107.2777	107.2672	10.5198	1E-4
2.507776E+2	95.0348	95.0206	14.2017	1E-4
2.518630E+2	94.5765	94.5606	15.9211	1E-4
2.689312E+2	87.8272	87.8124	14.8454	1E-4
2.696464E+2	87.5646	87.5482	16.4110	1E-4
6.242349E+2	32.0582	32.0563	1.8560	1E-4
3.090999E+2	74.8807	74.8785	2.2340	1E-5
3.097701E+2	74.6912	74.6914	-0.1921	1E-5
3.295174E+2	69.5180	69.5263	-8.2575	1E-5
3.300544E+2	69.3869	69.3946	-7.6866	1E-5
4.131326E+2	53.2118	53.2365	-24.6942	1E-5
6.599221E+2	29.8838	29.8824	1.3952	1E-5
6.619856E+2	29.7638	29.7645	-0.6512	1E-5
6.648202E+2	29.6032	29.6037	-0.5163	1E-5
6.760033E+2	28.9873	28.9839	3.4336	1E-5
6.948573E+2	27.9913	27.9880	3.3176	1E-5
7.149270E+2	26.9936	26.9909	2.7137	1E-5
7.364770E+2	25.9906	25.9866	4.0108	1E-5
7.593348E+2	24.9935	24.9900	3.5145	1E-5
7.838332E+2	23.9949	23.9933	1.5786	1E-5
8.101822E+2	22.9976	22.9963	1.3134	1E-5
8.386129E+2	21.9990	21.9992	-0.1931	1E-5
8.694131E+2	21.0012	21.0019	-0.7386	1E-5
9.030422E+2	19.9994	20.0012	-1.8234	1E-5
9.396622E+2	19.0015	19.0046	-3.0807	1E-5
9.799244E+2	18.0043	18.0078	-3.4660	1E-5
1.024572E+3	17.0053	17.0087	-3.3520	1E-5
1.074377E+3	16.0059	16.0088	-2.8523	1E-5
1.135915E+3	14.9141	14.9162	-2.0935	1E-5
1.199890E+3	13.9221	13.9220	0.1203	1E-5
1.273551E+3	12.9288	12.9263	2.5156	1E-5
1.359318E+3	11.9363	11.9325	3.7608	1E-5
1.460951E+3	10.9439	10.9411	2.8327	1E-5
1.585519E+3	9.9390	9.9422	-3.1708	1E-5
